File: data/electrodes/liquid calibration measurement.txt
WE(1).Potential (V)	Corrected time (s)
-0.0255737	0
-0.0259094	0.75
-0.026001	1.5
-0.0259705	2.25
-0.026123	3
-0.0258484	3.75
-0.0256653	4.5
-0.0263672	5.25
-0.0265808	6
-0.0267029	6.75
-0.026886	7.5
-0.0269165	8.25
-0.0270386	9
-0.0272522	9.75
-0.0271606	10.5
-0.026947	11.25
-0.0270386	12
-0.0270691	12.75
-0.02734375	13.5
-0.0275269	14.25
-0.0276184	15
-0.02771	15.75
-0.027832	16.5
-0.0278931	17.25
-0.0279541	18
-0.0281982	18.75
-0.0267639	19.5
-0.0273743	20.25
-0.0275574	21
-0.0275879	21.75
-0.0276184	22.5
-0.0281067	23.25
-0.0281067	24
-0.0281372	24.75
-0.0284119	25.5
-0.0283508	26.25
-0.0283203	27
-0.028595	27.75
-0.0285645	28.5
-0.0281982	29.25
-0.0284119	30
-0.0281372	30.75
-0.0281372	31.5
-0.0284119	32.25
-0.0282593	33
-0.0282288	33.75
-0.0283508	34.5
-0.0280457	35.25
-0.0279541	36
-0.0280151	36.75
-0.0282593	37.5
-0.0282898	38.25
-0.0283508	39
-0.0283508	39.75
-0.0283203	40.5
-0.0284729	41.25
-0.0283813	42
-0.0284119	42.75
-0.0284424	43.5
-0.0284424	44.25
-0.0280151	45
-0.0281372	45.75
-0.0281372	46.5
-0.0281372	47.25
-0.0281067	48
-0.0281067	48.75
-0.0280762	49.5
-0.0281372	50.25
-0.0280457	51
-0.0280762	51.75
-0.0280457	52.5
-0.0280762	53.25
-0.0281372	54
-0.0281372	54.75
-0.0281067	55.5
-0.02734375	56.25
-0.0285034	57
-0.0289917	57.75
-0.339355	58.5
-1.18713	59.25
-1.88934	60
-2.51984	60.75
-3.09448	61.5
-3.59863	62.25
-3.76129	63
-3.7558	63.75
-3.75366	64.5
-3.76221	65.25
-3.7735	66
0.00985718	66.75
-0.00735474	67.5
-0.00738525	68.25
-0.00961304	69
-0.00912476	69.75
-0.00939941	70.5
-0.00933838	71.25
-0.00939941	72
-0.00967407	72.75
-0.00973511	73.5
-0.009765625	74.25
-0.0102234	75
-0.0101929	75.75
-0.010376	76.5
-0.0105896	77.25
-0.010498	78
-0.0107422	78.75
-0.0109863	79.5
-0.0108337	80.25
-0.0109863	81
-0.0112	81.75
-0.0110779	82.5
-0.0111084	83.25
-0.0111084	84
-0.0111084	84.75
-0.0111694	85.5
-0.011261	86.25
-0.011261	87
-0.011261	87.75
-0.0111694	88.5
-0.0109863	89.25
-0.0112	90
-0.0110779	90.75
-0.0110779	91.5
-0.0113525	92.25
-0.0111694	93
-0.011322	93.75
-0.0114746	94.5
-0.0112305	95.25
-0.0113831	96
-0.0115662	96.75
-0.011322	97.5
-0.0114746	98.25
-0.0112915	99
-0.0112915	99.75
-0.0113525	100.5
-0.011322	101.25
-0.011261	102
-0.0113525	102.75
-0.0112305	103.5
-0.0112	104.25
-0.011322	105
-0.0112305	105.75
-0.0111389	106.5
-0.0112915	107.25
-0.0112305	108
-0.0111084	108.75
-0.0114136	109.5
-0.0112	110.25
-0.0112915	111
-0.0114441	111.75
-0.0111694	112.5
-0.011261	113.25
-0.0112305	114
-0.0112	114.75
-0.0113525	115.5
-0.0111389	116.25
-0.0110779	117
-0.0112915	117.75
-0.0110779	118.5
-0.0109863	119.25
-0.0112915	120
-0.0110168	120.75
-0.0112305	121.5
-0.0113525	122.25
-0.0111084	123
-0.0106506	123.75
-0.0111084	124.5
-0.0127258	125.25
0.00823975	126
-0.821228	126.75
-1.54205	127.5
-2.20367	128.25
-2.8125	129
-3.35724	129.75
-3.75854	130.5
-3.77228	131.25
-3.75732	132
-3.75702	132.75
-3.75916	133.5
-3.75397	134.25
-3.75153	135
-0.00253296	135.75
-0.0346069	136.5
-0.0161743	137.25
-0.0158691	138
-0.0163269	138.75
-0.0161133	139.5
-0.0165405	140.25
-0.0164795	141
-0.0165405	141.75
-0.0167236	142.5
-0.0164795	143.25
-0.0166626	144
-0.0169983	144.75
-0.0167236	145.5
-0.0171509	146.25
-0.0170288	147
-0.0170898	147.75
-0.0173645	148.5
-0.0170898	149.25
-0.017395	150
-0.0174866	150.75
-0.0171509	151.5
-0.017395	152.25
-0.0169983	153
-0.0170593	153.75
-0.0173035	154.5
-0.0169067	155.25
-0.0171204	156
-0.0167542	156.75
-0.0167847	157.5
-0.0170593	158.25
-0.0166626	159
-0.0170288	159.75
-0.0168152	160.5
-0.0168762	161.25
-0.0171509	162
-0.0168152	162.75
-0.0172424	163.5
-0.0169678	164.25
-0.0171509	165
-0.0174866	165.75
-0.0172119	166.5
-0.0176392	167.25
-0.0171814	168
-0.0178223	168.75
-0.0175171	169.5
-0.0177002	170.25
-0.0180054	171
-0.0177307	171.75
-0.0181885	172.5
-0.0176086	173.25
-0.0183411	174
-0.0177612	174.75
-0.018158	175.5
-0.0184326	176.25
-0.018219	177
-0.0185547	177.75
-0.0180969	178.5
-0.0187378	179.25
-0.0181274	180
-0.0188293	180.75
-0.0183716	181.5
-0.0186157	182.25
-0.0188599	183
-0.0186157	183.75
-0.0189819	184.5
-0.0184937	185.25
-0.019165	186
-0.0184937	186.75
-0.0191956	187.5
-0.0186157	188.25
-0.0191956	189
-0.0188599	189.75
-0.0189819	190.5
-0.0192871	191.25
-0.0189819	192
-0.0194092	192.75
-0.0188904	193.5
-0.0195618	194.25
-0.0188293	195
-0.0195923	195.75
-0.0187378	196.5
-0.0196228	197.25
-0.0190125	198
-0.0189819	198.75
-0.0180664	199.5
-0.201416	200.25
-2.65686	201
-3.25134	201.75
-3.70941	202.5
-3.76678	203.25
-3.77136	204
-3.76984	204.75
-3.7619	205.5
-3.75427	206.25
-3.75854	207
-3.74847	207.75
-3.69873	208.5
-0.013855	209.25
0.000488281	210
-0.0111694	210.75
-0.0110168	211.5
-0.0121765	212.25
-0.0116882	213
-0.0124512	213.75
-0.0121155	214.5
-0.0122681	215.25
-0.0125732	216
-0.0123901	216.75
-0.0127563	217.5
-0.0124512	218.25
-0.01297	219
-0.0123901	219.75
-0.0131531	220.5
-0.0123901	221.25
-0.013092	222
-0.0122681	222.75
-0.0130005	223.5
-0.0125427	224.25
-0.0129089	225
-0.0131531	225.75
-0.0129395	226.5
-0.0133057	227.25
-0.0129395	228
-0.0134583	228.75
-0.0128174	229.5
-0.0135193	230.25
-0.0128174	231
-0.0135803	231.75
-0.0127869	232.5
-0.0136108	233.25
-0.0128174	234
-0.0135498	234.75
-0.013031	235.5
-0.0132751	236.25
-0.0131226	237
-0.0132446	237.75
-0.0135193	238.5
-0.0132446	239.25
-0.0136108	240
-0.0131531	240.75
-0.0136414	241.5
-0.0130005	242.25
-0.0138245	243
-0.01297	243.75
-0.013855	244.5
-0.0129089	245.25
-0.0138855	246
-0.0129395	246.75
-0.0137634	247.5
-0.01297	248.25
-0.0137329	249
-0.0131226	249.75
-0.0132446	250.5
-0.0129395	251.25
-0.0130615	252
-0.0132141	252.75
-0.0130005	253.5
-0.0132446	254.25
-0.01297	255
-0.0133362	255.75
-0.0128784	256.5
-0.0133972	257.25
-0.0130005	258
-0.0135803	258.75
-0.0130615	259.5
-0.0137939	260.25
-0.0131226	261
-0.0137939	261.75
-0.0130615	262.5
-0.0138245	263.25
-0.0131836	264
-0.013855	264.75
-0.0132446	265.5
-0.013855	266.25
-0.0133362	267
-0.0138245	267.75
-0.0133667	268.5
-0.0137939	269.25
-0.0134583	270
-0.0137329	270.75
-0.0134888	271.5
-0.0136719	272.25
-0.0135803	273
-0.0138245	273.75
-0.0135193	274.5
-0.0145264	275.25
-0.189117	276
-0.969238	276.75
-1.66779	277.5
-2.30255	278.25
-2.89368	279
-3.42529	279.75
-3.76007	280.5
-3.75671	281.25
-3.76038	282
-3.75153	282.75
-3.75519	283.5
-0.00204468	284.25
-0.00262451	285
-0.00964355	285.75
-0.0100098	286.5
-0.00939941	287.25
-0.00973511	288
-0.009552	288.75
-0.00924683	289.5
-0.0098877	290.25
-0.00912476	291
-0.0101013	291.75
-0.00888062	292.5
-0.0100098	293.25
-0.00891113	294
-0.0098877	294.75
-0.00912476	295.5
-0.00970459	296.25
-0.00927734	297
-0.00949097	297.75
-0.00949097	298.5
-0.00894165	299.25
-0.00991821	300
-0.00872803	300.75
-0.00994873	301.5
-0.00888062	302.25
-0.009765625	303
-0.00915527	303.75
-0.00958252	304.5
-0.00942993	305.25
-0.0090332	306
-0.0098877	306.75
-0.00878906	307.5
-0.0100098	308.25
-0.00891113	309
-0.00991821	309.75
-0.00912476	310.5
-0.00967407	311.25
-0.00933838	312
-0.00921631	312.75
-0.00979614	313.5
-0.00891113	314.25
-0.0100098	315
-0.00881958	315.75
-0.0100098	316.5
-0.0090332	317.25
-0.00982666	318
-0.00924683	318.75
-0.00961304	319.5
-0.00946045	320.25
-0.00906372	321
-0.0098877	321.75
-0.00878906	322.5
-0.0100098	323.25
-0.00894165	324
-0.00994873	324.75
-0.00915527	325.5
-0.00967407	326.25
-0.00933838	327
-0.00918579	327.75
-0.00973511	328.5
-0.00894165	329.25
-0.00991821	330
-0.00875854	330.75
-0.0098877	331.5
-0.0088501	332.25
-0.009765625	333
-0.00900269	333.75
-0.00961304	334.5
-0.00915527	335.25
-0.00946045	336
-0.00933838	336.75
-0.00900269	337.5
-0.00964355	338.25
-0.00878906	339
-0.009765625	339.75
-0.00863647	340.5
-0.00970459	341.25
-0.00869751	342
-0.00961304	342.75
-0.00891113	343.5
-0.00946045	344.25
-0.00909424	345
-0.00918579	345.75
-0.00952148	346.5
-0.00842285	347.25
-0.00836182	348
-0.0445557	348.75
-0.699463	349.5
-1.42395	350.25
-2.08496	351
-2.70813	351.75
-3.26263	352.5
-3.72101	353.25
-3.75519	354
-3.75427	354.75
-3.75916	355.5
-3.75519	356.25
-3.77502	357
-0.00250244	357.75
0.00769043	358.5
-0.00616455	359.25
-0.00106812	360
0.000640869	360.75
-0.000518799	361.5
0.000762939	362.25
-3.05176e-05	363
0.000518799	363.75
0.000366211	364.5
-0.00012207	365.25
0.00106812	366
-0.000305176	366.75
0.000946045	367.5
0.00012207	368.25
0.000610352	369
0.00088501	369.75
-3.05176e-05	370.5
0.00131226	371.25
-9.15527e-05	372
0.000671387	372.75
9.15527e-05	373.5
0.000244141	374.25
0.000854492	375
-0.000427246	375.75
0.00100708	376.5
-9.15527e-05	377.25
0.000640869	378
0.000427246	378.75
-3.05176e-05	379.5
0.00115967	380.25
-0.000213623	381
0.000946045	381.75
0.000183105	382.5
0.000488281	383.25
0.00088501	384
-0.000305176	384.75
0.00115967	385.5
-9.15527e-05	386.25
0.000793457	387
0.000366211	387.75
0.00012207	388.5
0.00115967	389.25
-0.000305176	390
0.00106812	390.75
0.000152588	391.5
0.000610352	392.25
0.000823975	393
-0.000152588	393.75
0.00131226	394.5
-9.15527e-05	395.25
0.000823975	396
0.000396729	396.75
3.05176e-05	397.5
0.0012207	398.25
-0.000274658	399
9.765625E-4	399.75
0.000244141	400.5
0.000366211	401.25
0.00109863	402
-0.000335693	402.75
0.0010376	403.5
0.000152588	404.25
0.000335693	405
0.00109863	405.75
-0.000396729	406.5
0.000946045	407.25
0.000183105	408
0.000274658	408.75
0.00106812	409.5
-0.000396729	410.25
0.000915527	411
0.000183105	411.75
3.05176e-05	412.5
0.00112915	413.25
-0.000305176	414
0.000854492	414.75
0.000274658	415.5
-0.00012207	416.25
0.0012207	417
-0.000274658	417.75
0.000701904	418.5
0.000518799	419.25
-0.000457764	420
0.00109863	420.75
3.05176e-05	421.5
0.000305176	422.25
0.00112915	423
-0.000427246	423.75
0.000793457	424.5
0.000732422	425.25
-0.000366211	426
-0.088623	426.75
-2.03125	427.5
-2.66418	428.25
-3.21075	429
-3.69324	429.75
-3.76373	430.5
-3.76404	431.25
-3.7619	432
-3.75549	432.75
-3.74908	433.5
-3.76373	434.25
-3.76099	435
-3.74908	435.75
0.0251465	436.5
0.0151062	437.25
0.0112	438
0.013855	438.75
0.0135193	439.5
0.0133972	440.25
0.0150757	441
0.0137939	441.75
0.0145569	442.5
0.0153503	443.25
0.0137939	444
0.0150757	444.75
0.0150757	445.5
0.0138245	446.25
0.0154419	447
0.0148315	447.75
0.013916	448.5
0.0156555	449.25
0.0144653	450
0.0142822	450.75
0.015625	451.5
0.0141602	452.25
0.014801	453
0.0155029	453.75
0.0138245	454.5
0.0151062	455.25
0.0149841	456
0.0136719	456.75
0.0152893	457.5
0.0147095	458.25
0.0136414	459
0.0154114	459.75
0.0145569	460.5
0.0136414	461.25
0.0154114	462
0.0144958	462.75
0.0135803	463.5
0.0153809	464.25
0.0144958	465
0.0135193	465.75
0.0153198	466.5
0.0144043	467.25
0.0135498	468
0.0152283	468.75
0.0142822	469.5
0.0135803	470.25
0.0152283	471
0.0142517	471.75
0.0137024	472.5
0.0152588	473.25
0.0141296	474
0.0137939	474.75
0.0152283	475.5
0.0140381	476.25
0.0138245	477
0.0152283	477.75
0.0139465	478.5
0.0138245	479.25
0.0152588	480
0.0139465	480.75
0.0136719	481.5
0.0152588	482.25
0.0140686	483
0.0136414	483.75
0.0151672	484.5
0.0141296	485.25
0.0135498	486
0.0151672	486.75
0.0140686	487.5
0.0136414	488.25
0.0151978	489
0.013916	489.75
0.0138245	490.5
0.0152283	491.25
0.0137329	492
0.0139771	492.75
0.0152588	493.5
0.0134583	494.25
0.0144348	495
0.0150452	495.75
0.0133057	496.5
0.01474	497.25
0.0145569	498
0.0132446	498.75
0.0149536	499.5
0.0142212	500.25
0.0134583	501
0.0155029	501.75
0.0139465	502.5
0.009765625	503.25
0.00491333	504
-1.15234	504.75
-2.00562	505.5
-2.62115	506.25
-3.17688	507
-3.66638	507.75
-3.75977	508.5
-3.76434	509.25
-3.75732	510
-3.74847	510.75
-3.70636	511.5
-3.76709	512.25
0.0356445	513
0.0480957	513.75
0.0367126	514.5
0.0232849	515.25
0.0329285	516
0.0326538	516.75
0.0314026	517.5
0.0327454	518.25
0.0317688	519
0.0313721	519.75
0.0324707	520.5
0.0310364	521.25
0.0319519	522
0.0318298	522.75
0.0306702	523.5
0.0320129	524.25
0.0310669	525
0.0309753	525.75
0.0318604	526.5
0.0303955	527.25
0.0315857	528
0.0309448	528.75
0.0304871	529.5
0.0315247	530.25
0.0301819	531
0.03125	531.75
0.0307617	532.5
0.0300903	533.25
0.0312805	534
0.0299377	534.75
0.0309143	535.5
0.0305786	536.25
0.0297546	537
0.0310059	537.75
0.0297241	538.5
0.0307007	539.25
0.0301819	540
0.0296631	540.75
0.0307007	541.5
0.0294189	542.25
0.0304871	543
0.0299072	543.75
0.029541	544.5
0.0305786	545.25
0.0292053	546
0.0303345	546.75
0.0297241	547.5
0.0293884	548.25
0.0303345	549
0.0290222	549.75
0.0302124	550.5
0.0295105	551.25
0.0293884	552
0.0299072	552.75
0.0289307	553.5
0.0300903	554.25
0.0291443	555
0.0299072	555.75
0.029541	556.5
0.0291443	557.25
0.0300598	558
0.0288086	558.75
0.0299072	559.5
0.0290222	560.25
0.0296631	561
0.02948	561.75
0.0288086	562.5
0.0299377	563.25
0.028717	564
0.0298157	564.75
0.0291138	565.5
0.0291138	566.25
0.02948	567
0.0285645	567.75
0.0297852	568.5
0.028656	569.25
0.0296021	570
0.0291138	570.75
0.0288391	571.5
0.0294189	572.25
0.0284729	573
0.0296936	573.75
0.0285339	574.5
0.0293579	575.25
0.0291138	576
0.0292053	576.75
0.0287476	577.5
-0.864868	578.25
-1.57135	579
-2.22046	579.75
-2.8302	580.5
-3.37006	581.25
-3.75183	582
-3.76099	582.75
-3.76007	583.5
-3.75488	584.25
-3.75732	585
-3.76129	585.75
-3.76129	586.5
-3.76282	587.25
0.0652771	588
0.0541382	588.75
0.054657	589.5
0.0531921	590.25
0.0535889	591
0.0523682	591.75
0.052002	592.5
0.0519104	593.25
0.0509033	594
0.0515442	594.75
0.0502625	595.5
0.0513306	596.25
0.0499878	597
0.0509338	597.75
0.0498962	598.5
0.0505371	599.25
0.0499878	600
0.0496216	600.75
0.0500183	601.5
0.0491333	602.25
0.0500793	603
0.0488281	603.75
0.0499878	604.5
0.0487366	605.25
0.0497742	606
0.0488586	606.75
0.049469	607.5
0.0490112	608.25
0.048645	609
0.0490723	609.75
0.0481873	610.5
0.0492554	611.25
0.0478821	612
0.0491333	612.75
0.0479431	613.5
0.0489197	614.25
0.0481262	615
0.048645	615.75
0.0483704	616.5
0.0477905	617.25
0.0484314	618
0.0474243	618.75
0.0486145	619.5
0.0473022	620.25
0.0484314	621
0.0473938	621.75
0.0482788	622.5
0.0476379	623.25
0.0476685	624
0.04776	624.75
0.0472717	625.5
0.0478516	626.25
0.0469666	627
0.0480042	627.75
0.0466919	628.5
0.0479736	629.25
0.0467834	630
0.047821	630.75
0.0469666	631.5
0.0475769	632.25
0.0472412	633
0.0468445	633.75
0.0473633	634.5
0.0464172	635.25
0.0475464	636
0.0463257	636.75
0.0474548	637.5
0.0463867	638.25
0.0473328	639
0.0466003	639.75
0.0471191	640.5
0.046814	641.25
0.0464478	642
0.046936	642.75
0.0461121	643.5
0.0471497	644.25
0.0459595	645
0.0470276	645.75
0.045929	646.5
0.046936	647.25
0.0459595	648
0.0468445	648.75
0.04599	649.5
0.0467834	650.25
0.0461426	651
0.0466614	651.75
0.0462036	652.5
0.0461121	653.25
0.0462341	654
0.0458984	654.75
0.0466309	655.5
0.0457458	656.25
0.00137329	657
-0.68634	657.75
-1.40778	658.5
-2.06635	659.25
-2.65991	660
-3.23242	660.75
-3.70667	661.5
-3.7558	662.25
-3.76129	663
-3.76312	663.75
-3.76709	664.5
-3.76495	665.25
-3.75671	666
0.0688171	666.75
0.0635986	667.5
0.0639648	668.25
0.0645447	669
0.0630493	669.75
0.0636292	670.5
0.0623779	671.25
0.0630188	672
0.0619507	672.75
0.0625305	673.5
0.0615234	674.25
0.0620728	675
0.0611877	675.75
0.0617065	676.5
0.0608826	677.25
0.0614014	678
0.0606079	678.75
0.0610962	679.5
0.0603943	680.25
0.0608521	681
0.0601807	681.75
0.0606689	682.5
0.0600281	683.25
0.0604858	684
0.0598145	684.75
0.0603638	685.5
0.0596619	686.25
0.0602417	687
0.0594788	687.75
0.0601501	688.5
0.0593567	689.25
0.059967	690
0.0592041	690.75
0.059906	691.5
0.059082	692.25
0.0597839	693
0.0589294	693.75
0.0596924	694.5
0.0588074	695.25
0.0595703	696
0.0586853	696.75
0.0594482	697.5
0.0585632	698.25
0.0592957	699
0.0584106	699.75
0.0592041	700.5
0.0583801	701.25
0.0591125	702
0.0582886	702.75
0.0591431	703.5
0.058136	704.25
0.0590515	705
0.058075	705.75
0.0588989	706.5
0.0579529	707.25
0.0588074	708
0.0578308	708.75
0.0587158	709.5
0.0577087	710.25
0.0584717	711
0.0576782	711.75
0.0582886	712.5
0.0577087	713.25
0.0581665	714
0.0576782	714.75
0.0580139	715.5
0.0578003	716.25
0.0578613	717
0.0582581	717.75
0.0576477	718.5
0.0581665	719.25
0.0574036	720
0.0581665	720.75
0.0572205	721.5
0.0580444	722.25
0.0571289	723
0.0579834	723.75
0.0570374	724.5
0.0578918	725.25
0.0569458	726
0.0576172	726.75
0.0569458	727.5
0.0568848	728.25
0.0570068	729
0.057312	729.75
-2.86865	730.5
-3.41095	731.25
-3.75305	732
-3.76038	732.75
-3.76404	733.5
-3.76282	734.25
-3.76221	735
-3.76129	735.75
-3.75702	736.5
-3.7619	737.25
-3.7561	738
-3.75763	738.75
0.0938721	739.5
0.0789185	740.25
0.0773621	741
0.0766602	741.75
0.0766602	742.5
0.0761414	743.25
0.0759888	744
0.0761414	744.75
0.07547	745.5
0.0758667	746.25
0.0750732	747
0.075592	747.75
0.0747986	748.5
0.0753479	749.25
0.0745544	750
0.0750732	750.75
0.0744629	751.5
0.0747986	752.25
0.0744324	753
0.0744934	753.75
0.0744629	754.5
0.0741272	755.25
0.0746155	756
0.0738831	756.75
0.0744324	757.5
0.0736389	758.25
0.0742493	759
0.0735168	759.75
0.0740356	760.5
0.0734558	761.25
0.073822	762
0.0734863	762.75
0.0736084	763.5
0.0735474	764.25
0.0733337	765
0.0737915	765.75
0.0730896	766.5
0.0737	767.25
0.0729065	768
0.0735168	768.75
0.0727539	769.5
0.0733032	770.25
0.0727234	771
0.0731201	771.75
0.0726929	772.5
0.072998	773.25
0.0728149	774
0.0727234	774.75
0.0731201	775.5
0.0724487	776.25
0.0730286	777
0.0722961	777.75
0.072876	778.5
0.0720215	779.25
0.0727234	780
0.072052	780.75
0.0725708	781.5
0.072113	782.25
0.0723877	783
0.0722046	783.75
0.0721741	784.5
0.0725403	785.25
0.0718994	786
0.0724487	786.75
0.0717163	787.5
0.0722961	788.25
0.0715942	789
0.072113	789.75
0.0716553	790.5
0.0719604	791.25
0.0717468	792
0.0716553	792.75
0.0720825	793.5
0.0713806	794.25
0.0719299	795
0.071228	795.75
0.0717468	796.5
0.0712585	797.25
0.0715637	798
0.0714111	798.75
0.0713806	799.5
0.0717163	800.25
0.071106	801
0.0715942	801.75
0.0708923	802.5
0.0716553	803.25
0.0710449	804
0.0684814	804.75
0.0722961	805.5
-0.0825806	806.25
-0.873413	807
-1.57837	807.75
-2.23572	808.5
-2.84058	809.25
-3.38013	810
-3.74908	810.75
-3.75793	811.5
-3.76007	812.25
-3.76587	813
-3.76282	813.75
0.138824	814.5
0.123047	815.25
0.0923462	816
0.0956726	816.75
0.0947266	817.5
0.0932312	818.25
0.0929871	819
0.0923462	819.75
0.09198	820.5
0.0920715	821.25
0.0913391	822
0.0914917	822.75
0.0910645	823.5
0.0910034	824.25
0.091217	825
0.0905762	825.75
0.0908203	826.5
0.0904541	827.25
0.0905151	828
0.0906982	828.75
0.0901489	829.5
0.0903931	830.25
0.0899048	831
0.0901184	831.75
0.0900269	832.5
0.0897522	833.25
0.0900574	834
0.0895996	834.75
0.0898132	835.5
0.0896606	836.25
0.089447	837
0.0897522	837.75
0.0892334	838.5
0.0895081	839.25
0.0893555	840
0.0891418	840.75
0.0894165	841.5
0.0889587	842.25
0.0892029	843
0.0890198	843.75
0.0888977	844.5
0.0891724	845.25
0.0886841	846
0.0889282	846.75
0.0888062	847.5
0.0885925	848.25
0.0888977	849
0.0884705	849.75
0.0886841	850.5
0.088562	851.25
0.0884094	852
0.0886841	852.75
0.0882568	853.5
0.0884705	854.25
0.0883789	855
0.0881348	855.75
0.0884399	856.5
0.0880127	857.25
0.0882263	858
0.0884094	858.75
0.0879211	859.5
0.0881653	860.25
0.0879211	861
0.0879517	861.75
0.0881958	862.5
0.0876465	863.25
0.0879211	864
0.087738	864.75
0.087677	865.5
0.0878906	866.25
0.0875244	867
0.087738	867.75
0.0876465	868.5
0.0874329	869.25
0.0876465	870
0.0874023	870.75
0.0874329	871.5
0.0876465	872.25
0.0871887	873
0.0874023	873.75
0.0872498	874.5
0.0871887	875.25
0.0873413	876
0.0870361	876.75
0.0871582	877.5
0.0873413	878.25
0.0868835	879
0.0870667	879.75
0.0868835	880.5
0.0868835	881.25
0.0870361	882
0.0867004	882.75
0.0869141	883.5
0.086853	884.25
0.0866699	885
0.086792	885.75
0.0866699	886.5
0.0866089	887.25
0.0868225	888
0.0864563	888.75
0.0866699	889