File: data/electrodes/solid calibration measurement.txt
WE(1).Potential (V)	Corrected time (s)
0.124969	0
0.124115	1.25
0.124603	2.5
0.124817	3.75
0.124054	5
0.125	6.25
0.124451	7.5
0.124512	8.75
0.125061	10
0.124268	11.25
0.124939	12.5
0.124756	13.75
0.124359	15
0.125183	16.25
0.12442	17.5
0.124786	18.75
0.125	20
0.124329	21.25
0.125153	22.5
0.12442	23.75
0.124939	25
0.124878	26.25
0.124603	27.5
0.125183	28.75
0.12442	30
0.125183	31.25
0.124756	32.5
0.124817	33.75
0.125275	35
0.124512	36.25
0.125336	37.5
0.124939	38.75
0.124786	40
0.125488	41.25
0.124695	42.5
0.125275	43.75
0.125092	45
0.124878	46.25
0.125519	47.5
0.124725	48.75
0.125488	50
0.125031	51.25
0.125214	52.5
0.125336	53.75
0.124939	55
0.125519	56.25
0.124786	57.5
0.12558	58.75
0.124878	60
0.125366	61.25
0.125092	62.5
0.125092	63.75
0.125397	65
0.124786	66.25
0.125519	67.5
0.124695	68.75
0.125397	70
0.124908	71.25
0.125183	72.5
0.125122	73.75
0.124817	75
0.125458	76.25
0.124664	77.5
0.125458	78.75
0.124817	80
0.125305	81.25
0.125	82.5
0.125153	83.75
0.125183	85
0.124878	86.25
0.125427	87.5
0.124756	88.75
0.125519	90
0.124786	91.25
0.125427	92.5
0.124878	93.75
0.125366	95
0.124939	96.25
0.125336	97.5
0.124969	98.75
0.125305	100
0.125	101.25
0.125305	102.5
0.125031	103.75
0.125275	105
0.125061	106.25
0.125244	107.5
0.125183	108.75
0.125183	110
0.125305	111.25
0.125153	112.5
0.125336	113.75
0.125092	115
0.124725	116.25
0.0896912	117.5
1.84631	118.75
2.65106	120
3.29315	121.25
3.74023	122.5
3.77686	123.75
3.75153	125
3.77472	126.25
0.0356445	127.5
0.158508	128.75
0.154114	130
0.153687	131.25
0.153625	132.5
0.152557	133.75
0.152649	135
0.151733	136.25
0.151947	137.5
0.151154	138.75
0.151306	140
0.150757	141.25
0.150665	142.5
0.150299	143.75
0.150146	145
0.149933	146.25
0.149628	147.5
0.149567	148.75
0.149139	150
0.14917	151.25
0.148865	152.5
0.148987	153.75
0.14856	155
0.148804	156.25
0.148346	157.5
0.14859	158.75
0.148132	160
0.148499	161.25
0.147949	162.5
0.148224	163.75
0.147766	165
0.148163	166.25
0.147491	167.5
0.14801	168.75
0.147247	170
0.147736	171.25
0.146973	172.5
0.14743	173.75
0.146759	175
0.147217	176.25
0.146515	177.5
0.147095	178.75
0.146423	180
0.147034	181.25
0.146393	182.5
0.146912	183.75
0.146393	185
0.146973	186.25
0.146454	187.5
0.147003	188.75
0.146454	190
0.147034	191.25
0.146454	192.5
0.147003	193.75
0.146393	195
0.147003	196.25
0.146423	197.5
0.146942	198.75
0.146423	200
0.14682	201.25
0.146423	202.5
0.146667	203.75
0.146515	205
0.146454	206.25
0.146515	207.5
0.0665283	208.75
0.063385	210
0.0617676	211.25
0.0609741	212.5
0.059906	213.75
0.0595398	215
0.0586243	216.25
0.0583191	217.5
0.0573425	218.75
0.057373	220
0.0562439	221.25
0.0559082	222.5
0.0549011	223.75
0.0551758	225
0.0542908	226.25
0.0545959	227.5
0.0539246	228.75
0.0539246	230
0.0539551	231.25
0.0568542	232.5
0.331146	233.75
0.0520325	235
0.153076	236.25
0.0613098	237.5
0.0571594	238.75
0.0558167	240
0.0554199	241.25
0.0545959	242.5
0.0603027	243.75
0.0528259	245
0.152985	246.25
0.150452	247.5
0.149872	248.75
0.15683	250
0.150452	251.25
0.1492	252.5
0.149261	253.75
0.148407	255
0.148499	256.25
0.14798	257.5
0.148102	258.75
0.147675	260
0.147614	261.25
0.14743	262.5
0.147339	263.75
0.147217	265
0.147125	266.25
0.147034	267.5
0.147034	268.75
0.14682	270
0.146881	271.25
0.146729	272.5
0.146759	273.75
0.146515	275
0.146606	276.25
0.146362	277.5
0.146393	278.75
0.145508	280
0.146667	281.25
1.62567	282.5
2.34863	283.75
3.04901	285
0.126343	286.25
0.124908	287.5
0.123566	288.75
0.12265	290
0.122345	291.25
0.122101	292.5
0.374329	293.75
0.167175	295
0.284088	296.25
0.147888	297.5
0.14682	298.75
0.147095	300
0.146362	301.25
0.146667	302.5
0.146027	303.75
0.146454	305
0.145752	306.25
0.146118	307.5
0.145538	308.75
0.145813	310
0.145477	311.25
0.145508	312.5
0.145447	313.75
0.145142	315
0.145355	316.25
0.144867	317.5
0.145203	318.75
0.144653	320
0.14502	321.25
0.144653	322.5
0.144684	323.75
0.144684	325
0.144379	326.25
0.144714	327.5
0.144135	328.75
0.144501	330
0.144073	331.25
0.144257	332.5
0.144043	333.75
0.143951	335
0.144012	336.25
0.143707	337.5
0.143951	338.75
0.143433	340
0.14389	341.25
0.14328	342.5
0.143707	343.75
0.14325	345
0.143555	346.25
0.14328	347.5
0.14328	348.75
0.14325	350
0.143036	351.25
0.143219	352.5
0.142853	353.75
0.143127	355
0.14267	356.25
0.143127	357.5
0.142487	358.75
0.142975	360
0.142456	361.25
0.142853	362.5
0.142487	363.75
0.142609	365
0.142517	366.25
0.142395	367.5
0.142609	368.75
0.142151	370
0.142548	371.25
0.14212	372.5
0.142365	373.75
0.142181	375
0.14209	376.25
0.142273	377.5
0.141876	378.75
0.142151	380
0.141693	381.25
0.142181	382.5
0.141724	383.75
0.141937	385
0.141815	386.25
0.141724	387.5
0.141907	388.75
0.141479	390
0.141846	391.25
0.141418	392.5
0.141724	393.75
0.141602	395
0.141388	396.25
0.141541	397.5
0.141235	398.75
0.14151	400
0.141327	401.25
0.141205	402.5
0.141418	403.75
0.140991	405
0.141357	406.25
0.141022	407.5
0.141205	408.75
0.141144	410
0.14093	411.25
0.141144	412.5
0.140717	413.75
0.141113	415
0.140594	416.25
0.14093	417.5
0.14032	418.75
0.138824	420
0.312531	421.25
3.77197	422.5
3.75671	423.75
3.7558	425
3.79517	426.25
3.75427	427.5
0.115143	428.75
0.342438	430
0.12674	431.25
0.135925	432.5
0.135284	433.75
0.134949	435
0.134369	436.25
0.134399	437.5
0.133789	438.75
0.134033	440
0.13327	441.25
0.133728	442.5
0.133026	443.75
0.133514	445
0.132843	446.25
0.133331	447.5
0.13269	448.75
0.133087	450
0.132568	451.25
0.132935	452.5
0.132538	453.75
0.1328125	455
0.132446	456.25
0.13269	457.5
0.132416	458.75
0.132538	460
0.132446	461.25
0.132446	462.5
0.132477	463.75
0.132355	465
0.132446	466.25
0.132233	467.5
0.132446	468.75
0.132172	470
0.132355	471.25
0.132141	472.5
0.132324	473.75
0.13205	475
0.132263	476.25
0.132019	477.5
0.132233	478.75
0.131989	480
0.132111	481.25
0.131989	482.5
0.131989	483.75
0.132019	485
0.131897	486.25
0.131989	487.5
0.131805	488.75
0.131989	490
0.131683	491.25
0.131927	492.5
0.131622	493.75
0.131805	495
0.131592	496.25
0.131714	497.5
0.131622	498.75
0.131622	500
0.131592	501.25
0.1315	502.5
0.131592	503.75
0.131439	505
0.1315	506.25
0.131378	507.5
0.131378	508.75
0.131409	510
0.131226	511.25
0.131439	512.5
0.131042	513.75
0.131409	515
0.130981	516.25
0.131348	517.5
0.13089	518.75
0.131226	520
0.130859	521.25
0.131165	522.5
0.130798	523.75
0.131042	525
0.130737	526.25
0.131042	527.5
0.130646	528.75
0.131042	530
0.130463	531.25
0.130981	532.5
0.13031	533.75
0.130981	535
0.130219	536.25
0.13089	537.5
0.130188	538.75
0.130829	540
0.130219	541.25
0.130646	542.5
0.130249	543.75
0.130493	545
0.130402	546.25
0.130188	547.5
0.130554	548.75
0.129944	550
0.130585	551.25
0.129791	552.5
0.130524	553.75
0.129883	555
0.13031	556.25
0.129974	557.5
0.130096	558.75
0.130249	560
0.12973	561.25
0.130371	562.5
0.129486	563.75
0.131836	565
0.136047	566.25
0.120026	567.5
0.639343	568.75
2.54578	570
3.25287	571.25
3.74451	572.5
3.76556	573.75
0.110718	575
0.106659	576.25
0.106293	577.5
0.107117	578.75
0.180206	580
0.128021	581.25
0.126373	582.5
0.127136	583.75
0.126465	585
0.126312	586.25
0.126587	587.5
0.125641	588.75
0.126099	590
0.125885	591.25
0.125305	592.5
0.126007	593.75
0.125336	595
0.125122	596.25
0.125671	597.5
0.124939	598.75
0.125031	600
0.12558	601.25
0.124847	602.5
0.124908	603.75
0.125488	605
0.124695	606.25
0.124725	607.5
0.125397	608.75
0.124634	610
0.124664	611.25
0.125244	612.5
0.124603	613.75
0.124512	615
0.125153	616.25
0.124603	617.5
0.124268	618.75
0.125	620
0.124634	621.25
0.124054	622.5
0.124695	623.75
0.124786	625
0.123993	626.25
0.124329	627.5
0.124756	628.75
0.123993	630
0.123932	631.25
0.124634	632.5
0.124146	633.75
0.123627	635
0.124237	636.25
0.124298	637.5
0.123505	638.75
0.124084	640
0.124176	641.25
0.123383	642.5
0.123962	643.75
0.124023	645
0.123291	646.25
0.12384	647.5
0.123901	648.75
0.123138	650
0.123688	651.25
0.123871	652.5
0.123047	653.75
0.123535	655
0.123749	656.25
0.122955	657.5
0.123352	658.75
0.123657	660
0.122864	661.25
0.123291	662.5
0.123535	663.75
0.122772	665
0.12326	666.25
0.123444	667.5
0.122681	668.75
0.12326	670
0.123291	671.25
0.122559	672.5
0.12326	673.75
0.123108	675
0.122559	676.25
0.123322	677.5
0.122925	678.75
0.122711	680
0.123352	681.25
0.122681	682.5
0.123016	683.75
0.123169	685
0.122589	686.25
0.0502319	687.5
0.0474548	688.75
0.0458984	690
0.0453796	691.25
0.0440674	692.5
0.0438538	693.75
0.042511	695
0.0412903	696.25
0.0414734	697.5
0.0402222	698.75
0.0400696	700
0.0376282	701.25
0.128357	702.5
0.126709	703.75
0.128052	705
0.126526	706.25
0.126465	707.5
0.125519	708.75
0.125519	710
0.125458	711.25
0.124695	712.5
0.125275	713.75
0.124512	715
0.124634	716.25
0.124786	717.5
0.124084	718.75
0.124664	720
0.124146	721.25
0.124054	722.5
0.12442	723.75
0.123199	725
0.0908508	726.25
0.223602	727.5
1.61041	728.75
2.52045	730
3.25897	731.25
3.74939	732.5
3.76404	733.75
3.75366	735
3.78479	736.25
3.69965	737.5
0.115479	738.75
0.112183	740
0.112854	741.25
0.11319	742.5
0.112335	743.75
0.112274	745
0.112274	746.25
0.11145	747.5
0.111908	748.75
0.111328	750
0.111237	751.25
0.11145	752.5
0.110748	753.75
0.111298	755
0.110504	756.25
0.111084	757.5
0.110474	758.75
0.110779	760
0.110596	761.25
0.110352	762.5
0.110718	763.75
0.109985	765
0.110657	766.25
0.109894	767.5
0.110291	768.75
0.110046	770
0.110016	771.25
0.110199	772.5
0.10965	773.75
0.110291	775
0.109528	776.25
0.110046	777.5
0.10968	778.75
0.109741	780
0.109863	781.25
0.109375	782.5
0.109955	783.75
0.109283	785
0.109863	786.25
0.109222	787.5
0.10968	788.75
0.109253	790
0.109467	791.25
0.109222	792.5
0.109314	793.75
0.109314	795
0.109161	796.25
0.109344	797.5
0.108948	798.75
0.109344	800
0.108856	801.25
0.109344	802.5
0.108734	803.75
0.109314	805
0.108582	806.25
0.109253	807.5
0.108612	808.75
0.109039	810
0.108643	811.25
0.108978	812.5
0.108704	813.75
0.108795	815
0.108673	816.25
0.108612	817.5
0.108734	818.75
0.108337	820
0.108795	821.25
0.108246	822.5
0.108795	823.75
0.108185	825
0.108765	826.25
0.108124	827.5
0.108582	828.75
0.108124	830
0.108551	831.25
0.108154	832.5
0.108429	833.75
0.108124	835
0.108276	836.25
0.108215	837.5
0.108185	838.75
0.108246	840
0.108063	841.25
0.108246	842.5
0.107971	843.75
0.108185	845
0.107941	846.25
0.108124	847.5
0.107849	848.75
0.108032	850
0.107727	851.25
0.108032	852.5
0.107697	853.75
0.108002	855
0.107666	856.25
0.10788	857.5
0.107635	858.75
0.10791	860
0.107574	861.25
0.10788	862.5
0.107513	863.75
0.107849	865
0.107391	866.25
0.107819	867.5
0.107147	868.75
0.119049	870
2.36298	871.25
3.07465	872.5
3.65936	873.75
3.76068	875
3.75366	876.25
3.52936	877.5
0.380035	878.75
0.0329895	880
0.0952148	881.25
0.0949707	882.5
0.0940247	883.75
0.0944519	885
0.0935669	886.25
0.0939941	887.5
0.0932617	888.75
0.0937195	890
0.0929565	891.25
0.0935669	892.5
0.092865	893.75
0.0934753	895
0.0927734	896.25
0.0933838	897.5
0.0927124	898.75
0.0933228	900
0.0926208	901.25
0.0932617	902.5
0.0925598	903.75
0.0931091	905
0.0924072	906.25
0.0929871	907.5
0.0923462	908.75
0.0928955	910
0.0923462	911.25
0.0928345	912.5
0.0924072	913.75
0.092865	915
0.0924988	916.25
0.0927734	917.5
0.0926514	918.75
0.0926819	920
0.0927734	921.25
0.0926514	922.5
0.0927734	923.75
0.0925903	925
0.0927734	926.25
0.0924377	927.5
0.0926208	928.75
0.0926514	930
0.0925903	931.25
0.0926819	932.5
0.0924988	933.75
0.0926514	935
0.0924988	936.25
0.0925293	937.5
0.0924988	938.75
0.0924683	940
0.0925598	941.25
0.0923767	942.5
0.0925598	943.75
0.0922546	945
0.0927124	946.25
0.0921631	947.5
0.0925598	948.75
0.0921631	950
0.0924683	951.25
0.0921631	952.5
0.0923767	953.75
0.0921936	955
0.0923462	956.25
0.0921631	957.5
0.0923157	958.75
0.0920715	960
0.0924683	961.25
0.0919189	962.5
0.0924377	963.75
0.0919189	965
0.0923157	966.25
0.09198	967.5
0.0921021	968.75
0.0921326	970
0.0919189	971.25
0.0923462	972.5
0.0917358	973.75
0.0922241	975
0.0917053	976.25
0.0921936	977.5
0.0917053	978.75
0.0919189	980
0.0918579	981.25
0.0918274	982.5
0.0919189	983.75
0.0916138	985
0.0921326	986.25
0.0915222	987.5
0.092041	988.75
0.0915222	990
0.0918579	991.25
0.0917053	992.5
0.0916748	993.75
0.0917358	995
0.0914917	996.25
0.0919495	997.5
0.0913391	998.75
0.0918579	1000
0.0913696	1001.25
0.0917664	1002.5
0.0914307	1003.75
0.0916138	1005
0.0915222	1006.25
0.0915222	1007.5
0.0915527	1008.75
0.0913696	1010
0.0915527	1011.25
0.0913696	1012.5
0.0915833	1013.75
0.0912781	1015
0.090332	1016.25
0.0891113	1017.5
0.870361	1018.75
1.76727	1020
1.39099	1021.25
0.57373	1022.5
0.982361	1023.75
1.81091	1025
2.53387	1026.25
3.078	1027.5
-0.0816345	1028.75
0.0709534	1030
0.0707703	1031.25
0.0701599	1032.5
0.0710754	1033.75
0.0706177	1035
0.0714111	1036.25
0.0710449	1037.5
0.0718384	1038.75
0.0714111	1040
0.0721436	1041.25
0.0716858	1042.5
0.0724487	1043.75
0.0719604	1045
0.0727234	1046.25
0.0722046	1047.5
0.0730591	1048.75
0.0724792	1050
0.0733337	1051.25
0.0727539	1052.5
0.0735474	1053.75
0.072937	1055
0.0736084	1056.25
0.0732117	1057.5
0.073761	1058.75
0.0734253	1060
0.0736694	1061.25
0.0736389	1062.5
0.0739136	1063.75
0.0737915	1065
0.0740967	1066.25
0.0739746	1067.5
0.0744019	1068.75
0.0740356	1070
0.0745239	1071.25
0.0740662	1072.5
0.0746155	1073.75
0.0740967	1075
0.0747681	1076.25
0.0741272	1077.5
0.0748596	1078.75
0.0742493	1080
0.0749207	1081.25
0.0743408	1082.5
0.0749817	1083.75
0.0744019	1085
0.0750732	1086.25
0.0744629	1087.5
0.0751648	1088.75
0.0744324	1090
0.0752869	1091.25
0.074585	1092.5
0.0753479	1093.75
0.0746155	1095
0.0753784	1096.25
0.0747375	1097.5
0.0754395	1098.75
0.0747986	1100
0.0755005	1101.25
0.0747986	1102.5
0.075531	1103.75
0.0749512	1105
0.0756531	1106.25
0.0749817	1107.5
0.0756836	1108.75
0.0750732	1110
0.0756531	1111.25
0.0752258	1112.5
0.075531	1113.75
0.0753479	1115
0.07547	1116.25
0.0754395	1117.5
0.07547	1118.75
0.0755005	1120
0.0754395	1121.25
0.0755615	1122.5
0.0754089	1123.75
0.0757446	1125
0.0752563	1126.25
0.0758057	1127.5
0.0752563	1128.75
0.0759277	1130
0.0752869	1131.25
0.0759583	1132.5
0.0752563	1133.75
0.0760193	1135
0.0753174	1136.25
0.0760193	1137.5
0.0754089	1138.75
0.0760498	1140
0.0755005	1141.25
0.0758362	1142.5
0.0756531	1143.75
0.0758057	1145
0.0757751	1146.25
0.0756531	1147.5
0.0759277	1148.75
0.0755005	1150
0.0760193	1151.25
0.0753784	1152.5
0.0760498	1153.75
0.07547	1155
0.0760803	1156.25
0.0755005	1157.5
0.0760193	1158.75
0.075531	1160
0.0752258	1161.25
0.0763245	1162.5
3.79791	1163.75
3.7558	1165
3.75153	1166.25
3.75641	1167.5
3.75427	1168.75
3.7561	1170
3.75336	1171.25
3.72681	1172.5
0.00759888	1173.75
0.0614319	1175
0.061615	1176.25
0.0622864	1177.5
0.0617371	1178.75
0.0617676	1180
0.0610046	1181.25
0.0610657	1182.5
0.0603638	1183.75
0.0606079	1185
0.0600281	1186.25
0.0603638	1187.5
0.0597229	1188.75
0.0600891	1190
0.0595093	1191.25
0.0599365	1192.5
0.0593567	1193.75
0.0597534	1195
0.0591736	1196.25
0.0596313	1197.5
0.0591125	1198.75
0.0594788	1200
0.059082	1201.25
0.0593262	1202.5
0.0591431	1203.75
0.0592651	1205
0.0591431	1206.25
0.0591736	1207.5
0.0593567	1208.75
0.059021	1210
0.0593262	1211.25
0.0588989	1212.5
0.0592957	1213.75
0.0588379	1215
0.0592957	1216.25
0.0587769	1217.5
0.0593262	1218.75
0.0588074	1220
0.0592651	1221.25
0.0587769	1222.5
0.0592651	1223.75
0.0587158	1225
0.0591736	1226.25
0.0586548	1227.5
0.0591125	1228.75
0.0586243	1230
0.0591125	1231.25
0.0586548	1232.5
0.0591125	1233.75
0.0586853	1235
0.059082	1236.25
0.0587158	1237.5
0.059021	1238.75
0.0588379	1240
0.0590515	1241.25
0.0588989	1242.5
0.0589905	1243.75
0.0589905	1245
0.0589294	1246.25
0.0591736	1247.5
0.0588684	1248.75
0.0591736	1250
0.0587769	1251.25
0.0591736	1252.5
0.0588074	1253.75
0.0591736	1255
0.0588074	1256.25
0.0591736	1257.5
0.0587769	1258.75
0.0591736	1260
0.0586853	1261.25
0.0591431	1262.5
0.0586548	1263.75
0.0590515	1265
0.0587158	1266.25
0.0590515	1267.5
0.0587158	1268.75
0.0589905	1270
0.0587769	1271.25
0.0589905	1272.5
0.0587463	1273.75
0.059021	1275
0.0587158	1276.25
0.0589905	1277.5
0.0587769	1278.75
0.0589905	1280
0.0587769	1281.25
0.059021	1282.5
0.0587463	1283.75
0.0589905	1285
0.0588074	1286.25
0.0589905	1287.5
0.0587769	1288.75
0.05896	1290
0.0587769	1291.25
0.05896	1292.5
0.0588074	1293.75
0.0589294	1295
0.0588379	1296.25
0.0588379	1297.5
0.0590515	1298.75
0.0588074	1300
0.0590515	1301.25
0.0587463	1302.5
0.0590515	1303.75
0.0586548	1305
0.0591125	1306.25
0.05859375	1307.5
0.059082	1308.75
0.0585632	1310
0.0587463	1311.25
0.0584717	1312.5
0.0579224	1313.75
0.333466	1315
1.52618	1316.25
2.31323	1317.5
3.00385	1318.75
3.61115	1320
3.75366	1321.25
3.68225	1322.5
0.0666504	1323.75
0.0404358	1325
0.0402527	1326.25
0.0395813	1327.5
0.0398254	1328.75
0.0393982	1330
0.0396423	1331.25
0.0394287	1332.5
0.0396423	1333.75
0.0395813	1335
0.0396118	1336.25
0.0397949	1337.5
0.0397034	1338.75
0.0400085	1340
0.0397949	1341.25
0.0401001	1342.5
0.039917	1343.75
0.0401611	1345
0.0400085	1346.25
0.0402222	1347.5
0.0401001	1348.75
0.0400085	1350
0.0402222	1351.25
0.0401611	1352.5
0.0402527	1353.75
0.0404358	1355
0.0403442	1356.25
0.0405579	1357.5
0.0404053	1358.75
0.0406189	1360
0.0404358	1361.25
0.0407715	1362.5
0.0405273	1363.75
0.0408936	1365
0.0405273	1366.25
0.0409851	1367.5
0.0406189	1368.75
0.0410767	1370
0.0406494	1371.25
0.0411377	1372.5
0.0407104	1373.75
0.0411987	1375
0.0407715	1376.25
0.0412292	1377.5
0.0408325	1378.75
0.0412903	1380
0.0408936	1381.25
0.0413513	1382.5
0.040863	1383.75
0.0413818	1385
0.040863	1386.25
0.0414124	1387.5
0.0409546	1388.75
0.0414734	1390
0.0410156	1391.25
0.0415344	1392.5
0.0410767	1393.75
0.0415955	1395
0.0411072	1396.25
0.0415955	1397.5
0.0411682	1398.75
0.041626	1400
0.0412598	1401.25
0.0415955	1402.5
0.0413208	1403.75
0.041687	1405
0.0412903	1406.25
0.041748	1407.5
0.0412292	1408.75
0.0418091	1410
0.0412903	1411.25
0.0419312	1412.5
0.0414124	1413.75
0.0419312	1415
0.0415344	1416.25
0.0418701	1417.5
0.041626	1418.75
0.0416565	1420
0.0418091	1421.25
0.0414429	1422.5
0.0419617	1423.75
0.0413208	1425
0.0420227	1426.25
0.0415344	1427.5
0.0420227	1428.75
0.041748	1430
0.0419617	1431.25
0.0418701	1432.5
0.041687	1433.75
0.0419922	1435
0.0415649	1436.25
0.0421448	1437.5
0.0415344	1438.75
0.0420837	1440
0.041748	1441.25
0.0421143	1442.5
0.0419617	1443.75
0.0418396	1445
0.0421448	1446.25
0.0415955	1447.5
0.0422363	1448.75
0.0417175	1450
0.0422974	1451.25
0.0419006	1452.5
0.0422058	1453.75
0.0420532	1455
0.0418396	1456.25
0.0422974	1457.5
0.0416565	1458.75
0.0424194	1460
0.0419312	1461.25
0.0423279	1462.5
0.0422363	1463.75
0.0418091	1465
0.0420532	1466.25
0.0418091	1467.5
0.026947	1468.75
0.0357666	1470
1.01471	1471.25
1.89423	1472.5
2.62848	1473.75
3.29285	1475
3.74756	1476.25
3.75427	1477.5
-0.009765625	1478.75
0.0276184	1480
0.0188904	1481.25
0.0186768	1482.5
0.0190125	1483.75
0.0189514	1485
0.0197144	1486.25
0.0193176	1487.5
0.0197449	1488.75
0.0198669	1490
0.0194702	1491.25
0.0201721	1492.5
0.019928	1493.75
0.0198669	1495
0.0204773	1496.25
0.0200195	1497.5
0.0205078	1498.75
0.0206299	1500
0.0201111	1501.25
0.0207825	1502.5
0.0207214	1503.75
0.0202637	1505
0.0209656	1506.25
0.0209961	1507.5
0.0204468	1508.75
0.0209961	1510
0.0213623	1511.25
0.0209045	1512.5
0.0209351	1513.75
0.0215454	1515
0.0210876	1516.25
0.0210266	1517.5
0.0217285	1518.75
0.0213013	1520
0.0210571	1521.25
0.0218201	1522.5
0.0215149	1523.75
0.0210876	1525
0.0218506	1526.25
0.0217896	1527.5
0.0213318	1528.75
0.0218811	1530
0.0221252	1531.25
0.0216064	1532.5
0.0214844	1533.75
0.0222473	1535
0.0220337	1536.25
0.0215759	1537.5
0.0220032	1538.75
0.0224609	1540
0.0221252	1541.25
0.021637	1542.5
0.0220947	1543.75
0.0225525	1545
0.0223694	1546.25
0.0218201	1547.5
0.0219727	1548.75
0.0226746	1550
0.0224304	1551.25
0.0219421	1552.5
0.0220642	1553.75
0.0227051	1555
0.0226746	1556.25
0.0221558	1557.5
0.0220032	1558.75
0.0227661	1560
0.0228271	1561.25
0.0223389	1562.5
0.0220947	1563.75
0.0227966	1565
0.0230103	1566.25
0.022522	1567.5
0.0221558	1568.75
0.0228577	1570
0.0230713	1571.25
0.022583	1572.5
0.0223083	1573.75
0.0230103	1575
0.0231628	1576.25
0.022644	1577.5
0.0223389	1578.75
0.0230408	1580
0.0233154	1581.25
0.0227966	1582.5
0.0224304	1583.75
0.0231628	1585
0.023407	1586.25
0.0228882	1587.5
0.0225525	1588.75
0.0232544	1590
0.0233459	1591.25
0.0229187	1592.5
0.0227051	1593.75
0.0234375	1595
0.023407	1596.25
0.0228577	1597.5
0.0227966	1598.75
0.0235291	1600
0.0234985	1601.25
0.0228882	1602.5
0.0229187	1603.75
0.0236511	1605
0.023407	1606.25
0.0228882	1607.5
0.0230408	1608.75
0.0237122	1610
0.023468	1611.25
0.0229492	1612.5
0.023407	1613.75
0.0238953	1615
0.0234985	1616.25
0.0229797	1617.5
0.0235901	1618.75
0.0238647	1620
0.023407	1621.25
0.0230713	1622.5
0.0237427	1623.75
0.0231323	1625
0.0197754	1626.25
0.0327148	1627.5
0.368164	1628.75
1.43585	1630
2.24335	1631.25
2.97729	1632.5
3.61816	1633.75
3.75641	1635
3.73291	1636.25
-0.0345154	1637.5
0.00354004	1638.75
0.00228882	1640
0.00344849	1641.25
0.003479	1642.5
0.00323486	1643.75
0.00405884	1645
0.0039978	1646.25
0.00357056	1647.5
0.00393677	1648.75
0.00442505	1650
0.00390625	1651.25
0.00363159	1652.5
0.00442505	1653.75
0.00439453	1655
0.00390625	1656.25
0.0043335	1657.5
0.00476074	1658.75
0.00421143	1660
0.0039978	1661.25
0.00476074	1662.5
0.00457764	1663.75
0.00411987	1665
0.00466919	1666.25
0.00509644	1667.5
0.00439453	1668.75
0.00430298	1670
0.00512695	1671.25
0.00473022	1672.5
0.00436401	1673.75
0.00506592	1675
0.00506592	1676.25
0.00457764	1677.5
0.00497437	1678.75
0.00540161	1680
0.00469971	1681.25
0.00506592	1682.5
0.00549316	1683.75
0.00488281	1685
0.00512695	1686.25
0.00561523	1687.5
0.00500488	1688.75
0.00488281	1690
0.00564575	1691.25
0.00521851	1692.5
0.00497437	1693.75
0.0057373	1695
0.00534058	1696.25
0.00497437	1697.5
0.00576782	1698.75
0.00549316	1700
0.00509644	1701.25
0.005859375	1702.5
0.00567627	1703.75
0.00521851	1705
0.00588989	1706.25
0.005859375	1707.5
0.00531006	1708.75
0.00592041	1710
0.00616455	1711.25
0.00546265	1712.5
0.00595093	1713.75
0.00622559	1715
0.0055542	1716.25
0.00601196	1717.5
0.00631714	1718.75
0.00564575	1720
0.006073	1721.25
0.00637817	1722.5
0.00570679	1723.75
0.00616455	1725
0.00640869	1726.25
0.00576782	1727.5
0.00619507	1728.75
0.00656128	1730
0.005859375	1731.25
0.00631714	1732.5
0.0065918	1733.75
0.00592041	1735
0.00640869	1736.25
0.00671387	1737.5
0.00598145	1738.75
0.00646973	1740
0.00674438	1741.25
0.00601196	1742.5
0.00650024	1743.75
0.00680542	1745
0.00613403	1746.25
0.00653076	1747.5
0.00689697	1748.75
0.00619507	1750
0.00653076	1751.25
0.00695801	1752.5
0.00631714	1753.75
0.00662231	1755
0.00695801	1756.25
0.00628662	1757.5
0.00686646	1758.75
0.0065918	1760
0.00631714	1761.25
0.00708008	1762.5
0.00646973	1763.75
0.00695801	1765
0.00674438	1766.25
0.00640869	1767.5
0.00708008	1768.75
0.0065918	1770
0.00692749	1771.25
0.00717163	1772.5
0.00653076	1773.75
0.0071106	1775
0.00689697	1776.25
0.00656128	1777.5
0.0072937	1778.75
0.00674438	1780
0.00704956	1781.25
0.0071106	1782.5
0.00662231	1783.75
0.0072937	1785
0.00723267	1786